2016/05/30	14:41
Amplitude: 0.10 V
Freq  (Hz) 	 Gain (dB)  	 Phase (deg)
100.024             39.667             -0.795
158.511             39.571             -1.294
251.271             39.575             -2.090
398.047             39.566             -3.291
630.878             39.553             -5.165
1000.054             39.525             -8.211
1584.925             39.430            -12.774
2511.963             39.151            -19.731
3981.031             38.470            -29.905
6309.524             37.065            -43.336
9999.983             34.643            -57.759
15848.875             31.344            -69.857
25118.887             27.601            -77.784
39810.687             23.696            -82.857
63095.801             19.731            -86.263
100000.016             15.754            -89.473
158489.309             11.739            -91.143
