2016/05/31	16:08
Amplitude: 0.10 V
Freq  (Hz) 	 Gain (dB)  	 Phase (deg)
 10.058            -36.006             22.515
 11.176            -34.869             21.811
 12.666            -33.767             21.646
 14.156            -32.710             21.067
 15.832            -31.745             20.894
 17.695            -30.812             20.820
 19.930            -29.793             20.620
 22.352            -28.823             20.364
 25.146            -27.779             20.005
 28.126            -26.808             19.708
 31.665            -25.870             19.612
 35.390            -24.941             19.295
 39.861            -23.938             18.979
 44.703            -23.039             18.819
 50.105            -22.135             18.495
 56.252            -21.166             18.095
 63.144            -20.248             17.570
 70.781            -19.383             17.090
 79.349            -18.458             16.658
 89.034            -17.524             16.122
100.024            -16.700             15.450
112.131            -15.827             14.598
125.915            -14.987             13.867
141.189            -14.206             13.162
158.511            -13.514             12.702
177.883            -13.334             13.755
199.489            -13.131             14.784
223.890            -12.896             15.806
251.271            -12.620             16.656
281.818            -12.321             17.460
316.277            -11.993             18.031
354.834            -11.631             18.219
398.047            -11.262             18.198
446.662            -10.881             17.916
501.238            -10.495             17.236
562.333            -10.116             16.174
630.878             -9.759             14.870
707.991             -9.418             13.144
794.418             -9.115             11.228
891.276             -8.842              8.942
1000.054             -8.614              6.444
1122.057             -8.427              3.740
1258.962             -8.285              0.940
1412.630             -8.180             -2.087
1584.925             -8.132             -5.191
1778.267             -8.125             -8.559
1995.265             -8.157            -11.859
2238.713             -8.246            -15.366
2511.963             -8.381            -18.989
2818.368             -8.568            -22.668
3162.213             -8.809            -26.437
3548.153             -9.109            -30.284
3981.031             -9.464            -34.101
4466.809             -9.882            -37.920
5011.819            -10.365            -41.782
5623.326            -10.905            -45.487
6309.524            -11.505            -49.088
7079.542            -12.156            -52.568
7943.250            -12.856            -55.895
8912.571            -13.609            -58.969
9999.983            -14.397            -61.863
11220.202            -15.220            -64.522
12589.246            -16.075            -66.912
14125.369            -16.955            -69.268
15848.875            -17.858            -71.289
17782.860            -18.771            -73.138
19952.655            -19.702            -74.818
22387.132            -20.649            -76.356
25118.887            -21.606            -77.672
28183.870            -22.569            -78.840
31622.685            -23.536            -79.941
35481.341            -24.507            -80.845
39810.687            -25.486            -81.727
44668.280            -26.464            -82.458
50118.752            -27.449            -83.022
56234.188            -28.433            -83.598
63095.801            -29.421            -84.086
70794.486            -30.405            -84.525
79432.875            -31.387            -84.827
89125.149            -32.368            -85.087
100000.016            -33.337            -85.080
112201.832            -34.327            -85.397
125892.460            -35.302            -85.635
141253.695            -36.271            -85.666
158489.309            -37.236            -85.720
177827.850            -38.188            -85.505
199526.176            -39.128            -85.359
